date	time	group	subject	session	build	blocknum	trialnum	blockcode	trialcode	pretrialpause	posttrialpause	trialduration	trialtimeout	response	correct	latency	stimulusnumber1	stimulusitem1	stimulusonset1	stimulusnumber2	stimulusitem2	stimulusonset2	stimulusnumber3	stimulusitem3	stimulusonset3	stimulusnumber4	stimulusitem4	stimulusonset4
2025-04-22	22:16:10	1	1	1	6.6.3	3	1	EC	t1	0	0	0	0	0	0	2500	1	+	0	1		508	1	CS1.jpg	508	2	US1.2.jpg	508
2025-04-22	22:16:10	1	1	1	6.6.3	3	2	EC	t2	0	0	0	0	0	0	2500	1	+	0	1		499	1	CS2.jpg	499	2	US2.2.jpg	499
2025-04-22	22:16:10	1	1	1	6.6.3	3	3	EC	t1	0	0	0	0	0	0	2500	1	+	0	1		505	1	CS1.jpg	505	1	US1.1.jpg	505
2025-04-22	22:16:10	1	1	1	6.6.3	3	4	EC	t2	0	0	0	0	0	0	2500	1	+	0	1		508	1	CS2.jpg	508	1	US2.1.jpg	508
2025-04-22	22:16:10	1	1	1	6.6.3	3	5	EC	t1	0	0	0	0	0	0	2500	1	+	0	1		506	1	CS1.jpg	506	2	US1.2.jpg	506
2025-04-22	22:16:10	1	1	1	6.6.3	3	6	EC	t2	0	0	0	0	0	0	2500	1	+	0	1		506	1	CS2.jpg	506	2	US2.2.jpg	506
2025-04-22	22:16:10	1	1	1	6.6.3	3	7	EC	t1	0	0	0	0	0	0	2500	1	+	2	1		499	1	CS1.jpg	499	1	US1.1.jpg	499
2025-04-22	22:16:10	1	1	1	6.6.3	3	8	EC	t2	0	0	0	0	0	0	2500	1	+	0	1		499	1	CS2.jpg	499	1	US2.1.jpg	499
2025-04-22	22:16:10	1	1	1	6.6.3	3	9	EC	t1	0	0	0	0	0	0	2500	1	+	0	1		499	1	CS1.jpg	499	1	US1.1.jpg	499
2025-04-22	22:16:10	1	1	1	6.6.3	3	10	EC	t2	0	0	0	0	0	0	2500	1	+	0	1		499	1	CS2.jpg	499	1	US2.1.jpg	499
2025-04-22	22:16:10	1	1	1	6.6.3	3	11	EC	t1	0	0	0	0	0	0	2500	1	+	0	1		499	1	CS1.jpg	499	2	US1.2.jpg	499
2025-04-22	22:16:10	1	1	1	6.6.3	3	12	EC	t2	0	0	0	0	0	0	2500	1	+	0	1		499	1	CS2.jpg	499	2	US2.2.jpg	499
2025-04-22	22:16:10	1	1	1	6.6.3	3	13	EC	t1	0	0	0	0	0	0	2500	1	+	0	1		499	1	CS1.jpg	499	2	US1.2.jpg	499
2025-04-22	22:16:10	1	1	1	6.6.3	3	14	EC	t2	0	0	0	0	0	0	2500	1	+	0	1		499	1	CS2.jpg	499	2	US2.2.jpg	499
2025-04-22	22:16:10	1	1	1	6.6.3	3	15	EC	t1	0	0	0	0	0	0	2500	1	+	0	1		499	1	CS1.jpg	499	1	US1.1.jpg	499
2025-04-22	22:16:10	1	1	1	6.6.3	3	16	EC	t2	0	0	0	0	0	0	2500	1	+	0	1		499	1	CS2.jpg	499	1	US2.1.jpg	499
2025-04-22	22:16:10	1	1	1	6.6.3	3	17	EC	t1	0	0	0	0	0	0	2500	1	+	0	1		499	1	CS1.jpg	499	1	US1.1.jpg	499
2025-04-22	22:16:10	1	1	1	6.6.3	3	18	EC	t2	0	0	0	0	0	0	2500	1	+	0	1		499	1	CS2.jpg	499	2	US2.2.jpg	499
2025-04-22	22:16:10	1	1	1	6.6.3	3	19	EC	t1	0	0	0	0	0	0	2500	1	+	0	1		499	1	CS1.jpg	499	2	US1.2.jpg	499
2025-04-22	22:16:10	1	1	1	6.6.3	3	20	EC	t2	0	0	0	0	0	0	2500	1	+	0	1		499	1	CS2.jpg	499	1	US2.1.jpg	499
2025-04-22	22:16:10	1	1	1	6.6.3	3	21	EC	CS1_Rate	0	0	0	0	7	0	2429	1	How much do you like this picture?	8	1	CS1.jpg	8	0	0	0	0	0	0
2025-04-22	22:16:10	1	1	1	6.6.3	3	22	EC	CS2_Rate	0	0	0	0	7	0	690	1	How much do you like this picture?	-1	1	CS2.jpg	-1	0	0	0	0	0	0
2025-04-22	22:16:10	1	1	1	6.6.3	4	1	EndBlock	debrief	0	0	0	0		1	21920	0	0	0	0	0	0	0	0	0	0	0	0
