date	time	group	subject	session	build	blocknum	trialnum	blockcode	trialcode	pretrialpause	posttrialpause	trialduration	trialtimeout	response	correct	latency	stimulusnumber1	stimulusitem1	stimulusonset1	stimulusnumber2	stimulusitem2	stimulusonset2	stimulusnumber3	stimulusitem3	stimulusonset3	stimulusnumber4	stimulusitem4	stimulusonset4
2025-04-22	21:30:17	1	1	1	6.6.3	3	1	EC	t1	0	0	0	0	0	0	2500	1	+	2	1		499	1	CS1.jpg	499	1	US1.1.jpg	499
2025-04-22	21:30:17	1	1	1	6.6.3	3	2	EC	t2	0	0	0	0	0	0	2500	1	+	0	1		499	1	CS2.jpg	499	2	US2.2.jpg	499
2025-04-22	21:30:17	1	1	1	6.6.3	3	3	EC	t1	0	0	0	0	0	0	2500	1	+	0	1		499	1	CS1.jpg	499	2	US1.2.jpg	499
2025-04-22	21:30:17	1	1	1	6.6.3	3	4	EC	t2	0	0	0	0	0	0	2500	1	+	0	1		499	1	CS2.jpg	499	1	US2.1.jpg	499
2025-04-22	21:30:17	1	1	1	6.6.3	3	5	EC	t1	0	0	0	0	0	0	2500	1	+	0	1		499	1	CS1.jpg	499	2	US1.2.jpg	499
2025-04-22	21:30:17	1	1	1	6.6.3	3	6	EC	t2	0	0	0	0	0	0	2500	1	+	0	1		499	1	CS2.jpg	499	1	US2.1.jpg	499
2025-04-22	21:30:17	1	1	1	6.6.3	3	7	EC	t1	0	0	0	0	0	0	2500	1	+	0	1		499	1	CS1.jpg	499	1	US1.1.jpg	499
2025-04-22	21:30:17	1	1	1	6.6.3	3	8	EC	t2	0	0	0	0	0	0	2500	1	+	0	1		499	1	CS2.jpg	499	2	US2.2.jpg	499
2025-04-22	21:30:17	1	1	1	6.6.3	3	9	EC	t1	0	0	0	0	0	0	2500	1	+	0	1		499	1	CS1.jpg	499	2	US1.2.jpg	499
2025-04-22	21:30:17	1	1	1	6.6.3	3	10	EC	t2	0	0	0	0	0	0	2500	1	+	0	1		499	1	CS2.jpg	499	2	US2.2.jpg	499
2025-04-22	21:30:17	1	1	1	6.6.3	3	11	EC	t1	0	0	0	0	0	0	2500	1	+	0	1		499	1	CS1.jpg	499	1	US1.1.jpg	499
2025-04-22	21:30:17	1	1	1	6.6.3	3	12	EC	t2	0	0	0	0	0	0	2500	1	+	0	1		499	1	CS2.jpg	499	1	US2.1.jpg	499
2025-04-22	21:30:17	1	1	1	6.6.3	3	13	EC	t1	0	0	0	0	0	0	2500	1	+	0	1		499	1	CS1.jpg	499	2	US1.2.jpg	499
2025-04-22	21:30:17	1	1	1	6.6.3	3	14	EC	t2	0	0	0	0	0	0	2500	1	+	0	1		499	1	CS2.jpg	499	1	US2.1.jpg	499
2025-04-22	21:30:17	1	1	1	6.6.3	3	15	EC	t1	0	0	0	0	0	0	2500	1	+	0	1		499	1	CS1.jpg	499	1	US1.1.jpg	499
2025-04-22	21:30:17	1	1	1	6.6.3	3	16	EC	t2	0	0	0	0	0	0	2500	1	+	0	1		499	1	CS2.jpg	499	2	US2.2.jpg	499
2025-04-22	21:30:17	1	1	1	6.6.3	3	17	EC	t1	0	0	0	0	0	0	2500	1	+	0	1		499	1	CS1.jpg	499	2	US1.2.jpg	499
2025-04-22	21:30:17	1	1	1	6.6.3	3	18	EC	t2	0	0	0	0	0	0	2500	1	+	0	1		499	1	CS2.jpg	499	2	US2.2.jpg	499
2025-04-22	21:30:17	1	1	1	6.6.3	3	19	EC	t1	0	0	0	0	0	0	2500	1	+	0	1		499	1	CS1.jpg	499	1	US1.1.jpg	499
2025-04-22	21:30:17	1	1	1	6.6.3	3	20	EC	t2	0	0	0	0	0	0	2500	1	+	0	1		499	1	CS2.jpg	499	1	US2.1.jpg	499
2025-04-22	21:30:17	1	1	1	6.6.3	3	21	EC	CS1_Rate	0	0	0	0	9	0	56884	1	How much do you like this picture?	1	1	CS1.jpg	1	0	0	0	0	0	0
2025-04-22	21:30:17	1	1	1	6.6.3	3	22	EC	CS2_Rate	0	0	0	0	9	0	5431	1	How much do you like this picture?	-4	1	CS2.jpg	-4	0	0	0	0	0	0
2025-04-22	21:30:17	1	1	1	6.6.3	4	1	EndBlock	q1	0	0	0	0	A	1	6383	0	0	0	0	0	0	0	0	0	0	0	0
2025-04-22	21:30:17	1	1	1	6.6.3	4	1	EndBlock	abort	0	0	0	0	Keep going	1	6383	0	0	0	0	0	0	0	0	0	0	0	0
